# E_ve(MeV) dphi/dE_ve(N_ve/MeV/cm2/s)
3.000e-2, 1.261e+12
4.000e-2, 1.101e+12
5.000e-2, 1.061e+12
6.000e-2, 1.431e+12
6.000e-2, 7.650e+11
7.000e-2, 1.792e+12
7.000e-2, 9.503e+11
8.000e-2, 2.163e+12
8.000e-2, 1.526e+12
9.000e-2, 2.533e+12
9.000e-2, 1.892e+12
1.000e-1, 2.548e+12
1.100e-1, 2.719e+12
1.200e-1, 2.889e+12
1.300e-1, 2.959e+12
1.400e-1, 2.969e+12
1.500e-1, 3.109e+12
1.600e-1, 3.310e+12
1.700e-1, 3.460e+12
1.800e-1, 4.126e+12
1.800e-1, 3.500e+12
1.900e-1, 4.126e+12
2.000e-1, 4.402e+12
2.100e-1, 4.587e+12
2.200e-1, 4.768e+12
2.300e-1, 4.868e+12
2.400e-1, 5.098e+12
2.500e-1, 5.309e+12
2.600e-1, 5.514e+12
2.700e-1, 5.614e+12
2.800e-1, 5.689e+12
2.900e-1, 5.729e+12
3.000e-1, 5.709e+12
3.100e-1, 5.629e+12
3.200e-1, 5.594e+12
3.300e-1, 5.554e+12
3.400e-1, 5.554e+12
3.500e-1, 5.554e+12
3.600e-1, 5.574e+12
3.700e-1, 5.574e+12
3.800e-1, 5.534e+12
3.900e-1, 5.459e+12
4.000e-1, 5.314e+12
4.100e-1, 5.239e+12
4.200e-1, 5.043e+12
4.300e-1, 4.848e+12
4.400e-1, 4.687e+12
4.500e-1, 4.522e+12
4.600e-1, 4.447e+12
4.700e-1, 4.307e+12
4.800e-1, 4.121e+12
4.900e-1, 3.966e+12
5.000e-1, 3.806e+12
5.100e-1, 3.696e+12
5.200e-1, 3.645e+12
5.300e-1, 3.615e+12
5.400e-1, 3.630e+12
5.500e-1, 3.661e+12
5.600e-1, 3.711e+12
5.700e-1, 3.731e+12
5.800e-1, 3.746e+12
5.900e-1, 3.746e+12
6.000e-1, 3.746e+12
6.100e-1, 3.746e+12
6.200e-1, 3.721e+12
6.300e-1, 3.721e+12
6.400e-1, 3.696e+12
6.500e-1, 3.671e+12
6.600e-1, 3.661e+12
6.700e-1, 3.630e+12
6.800e-1, 3.615e+12
6.900e-1, 3.595e+12
7.000e-1, 3.595e+12
7.100e-1, 3.565e+12
7.200e-1, 3.565e+12
7.300e-1, 3.580e+12
7.400e-1, 3.580e+12
7.500e-1, 3.565e+12
7.600e-1, 3.565e+12
7.700e-1, 3.555e+12
7.800e-1, 3.545e+12
7.900e-1, 3.520e+12
8.000e-1, 3.495e+12
8.100e-1, 3.485e+12
8.200e-1, 3.445e+12
8.300e-1, 3.435e+12
8.400e-1, 3.435e+12
8.500e-1, 3.435e+12
8.600e-1, 3.425e+12
8.700e-1, 3.425e+12
8.800e-1, 3.400e+12
8.900e-1, 3.375e+12
9.000e-1, 3.375e+12
9.100e-1, 3.375e+12
9.200e-1, 3.400e+12
9.300e-1, 3.400e+12
9.400e-1, 3.400e+12
9.500e-1, 3.410e+12
9.600e-1, 3.400e+12
9.700e-1, 3.400e+12
9.800e-1, 3.375e+12
9.900e-1, 3.400e+12
1.000e+0, 3.435e+12
1.010e+0, 3.445e+12
1.020e+0, 3.470e+12
1.030e+0, 3.445e+12
1.040e+0, 3.425e+12
1.050e+0, 3.415e+12
1.060e+0, 3.385e+12
1.070e+0, 3.365e+12
1.080e+0, 3.330e+12
1.090e+0, 3.295e+12
1.100e+0, 3.270e+12
1.110e+0, 3.240e+12
1.120e+0, 3.175e+12
1.130e+0, 3.084e+12
1.140e+0, 2.999e+12
1.150e+0, 2.939e+12
1.160e+0, 2.864e+12
1.170e+0, 2.834e+12
1.180e+0, 2.749e+12
1.190e+0, 2.664e+12
1.200e+0, 2.598e+12
1.210e+0, 2.548e+12
1.220e+0, 2.518e+12
1.230e+0, 2.473e+12
1.240e+0, 2.393e+12
1.250e+0, 2.368e+12
1.260e+0, 2.303e+12
1.270e+0, 2.283e+12
1.280e+0, 2.278e+12
1.290e+0, 2.253e+12
1.300e+0, 2.238e+12
1.310e+0, 2.213e+12
1.320e+0, 2.203e+12
1.330e+0, 2.183e+12
1.340e+0, 2.168e+12
1.350e+0, 2.153e+12
1.360e+0, 2.133e+12
1.370e+0, 2.108e+12
1.380e+0, 2.098e+12
1.390e+0, 2.072e+12
1.400e+0, 2.067e+12
1.410e+0, 2.042e+12
1.420e+0, 2.027e+12
1.430e+0, 2.007e+12
1.440e+0, 1.987e+12
1.450e+0, 1.967e+12
1.460e+0, 1.957e+12
1.470e+0, 1.937e+12
1.480e+0, 1.917e+12
1.490e+0, 1.902e+12
1.500e+0, 1.887e+12
1.510e+0, 1.867e+12
1.520e+0, 1.867e+12
1.530e+0, 1.857e+12
1.540e+0, 1.842e+12
1.550e+0, 1.827e+12
1.560e+0, 1.822e+12
1.570e+0, 1.817e+12
1.580e+0, 1.807e+12
1.590e+0, 1.787e+12
1.600e+0, 1.782e+12
1.610e+0, 1.777e+12
1.620e+0, 1.767e+12
1.630e+0, 1.757e+12
1.640e+0, 1.752e+12
1.650e+0, 1.742e+12
1.660e+0, 1.727e+12
1.670e+0, 1.717e+12
1.680e+0, 1.707e+12
1.690e+0, 1.702e+12
1.700e+0, 1.697e+12
1.710e+0, 1.682e+12
1.720e+0, 1.672e+12
1.730e+0, 1.657e+12
1.740e+0, 1.647e+12
1.750e+0, 1.642e+12
1.760e+0, 1.637e+12
1.770e+0, 1.627e+12
1.780e+0, 1.612e+12
1.790e+0, 1.602e+12
1.800e+0, 1.592e+12
1.810e+0, 1.582e+12
1.820e+0, 1.572e+12
1.830e+0, 1.562e+12
1.840e+0, 1.551e+12
1.850e+0, 1.541e+12
1.860e+0, 1.531e+12
1.870e+0, 1.526e+12
1.880e+0, 1.511e+12
1.890e+0, 1.501e+12
1.900e+0, 1.491e+12
1.910e+0, 1.481e+12
1.920e+0, 1.471e+12
1.930e+0, 1.466e+12
1.940e+0, 1.451e+12
1.950e+0, 1.441e+12
1.960e+0, 1.431e+12
1.970e+0, 1.421e+12
1.980e+0, 1.411e+12
1.990e+0, 1.406e+12
2.000e+0, 1.396e+12
2.010e+0, 1.391e+12
2.020e+0, 1.381e+12
2.030e+0, 1.371e+12
2.040e+0, 1.361e+12
2.050e+0, 1.356e+12
2.060e+0, 1.351e+12
2.070e+0, 1.346e+12
2.080e+0, 1.336e+12
2.090e+0, 1.326e+12
2.100e+0, 1.321e+12
2.110e+0, 1.316e+12
2.120e+0, 1.311e+12
2.130e+0, 1.301e+12
2.140e+0, 1.291e+12
2.150e+0, 1.281e+12
2.160e+0, 1.281e+12
2.170e+0, 1.271e+12
2.180e+0, 1.261e+12
2.190e+0, 1.256e+12
2.200e+0, 1.246e+12
2.210e+0, 1.236e+12
2.220e+0, 1.231e+12
2.230e+0, 1.226e+12
2.240e+0, 1.221e+12
2.250e+0, 1.211e+12
2.260e+0, 1.206e+12
2.270e+0, 1.196e+12
2.280e+0, 1.191e+12
2.290e+0, 1.181e+12
2.300e+0, 1.171e+12
2.310e+0, 1.166e+12
2.320e+0, 1.161e+12
2.330e+0, 1.156e+12
2.340e+0, 1.146e+12
2.350e+0, 1.136e+12
2.360e+0, 1.126e+12
2.370e+0, 1.126e+12
2.380e+0, 1.116e+12
2.390e+0, 1.106e+12
2.400e+0, 1.106e+12
2.410e+0, 1.096e+12
2.420e+0, 1.096e+12
2.430e+0, 1.086e+12
2.440e+0, 1.076e+12
2.450e+0, 1.071e+12
2.460e+0, 1.066e+12
2.470e+0, 1.061e+12
2.480e+0, 1.051e+12
2.490e+0, 1.041e+12
2.500e+0, 1.036e+12
2.510e+0, 1.036e+12
2.520e+0, 1.025e+12
2.530e+0, 1.015e+12
2.540e+0, 1.010e+12
2.550e+0, 1.005e+12
2.560e+0, 9.954e+11
2.570e+0, 9.904e+11
2.580e+0, 9.854e+11
2.590e+0, 9.754e+11
2.600e+0, 9.704e+11
2.610e+0, 9.654e+11
2.620e+0, 9.554e+11
2.630e+0, 9.554e+11
2.640e+0, 9.453e+11
2.650e+0, 9.403e+11
2.660e+0, 9.353e+11
2.670e+0, 9.253e+11
2.680e+0, 9.203e+11
2.690e+0, 9.153e+11
2.700e+0, 9.103e+11
2.710e+0, 9.053e+11
2.720e+0, 8.952e+11
2.730e+0, 8.852e+11
2.740e+0, 8.852e+11
2.750e+0, 8.802e+11
2.760e+0, 8.702e+11
2.770e+0, 8.652e+11
2.780e+0, 8.602e+11
2.790e+0, 8.552e+11
2.800e+0, 8.502e+11
2.810e+0, 8.401e+11
2.820e+0, 8.351e+11
2.830e+0, 8.301e+11
2.840e+0, 8.251e+11
2.850e+0, 8.151e+11
2.860e+0, 8.101e+11
2.870e+0, 8.101e+11
2.880e+0, 8.001e+11
2.890e+0, 8.001e+11
2.900e+0, 7.850e+11
2.910e+0, 7.850e+11
2.920e+0, 7.800e+11
2.930e+0, 7.750e+11
2.940e+0, 7.650e+11
2.950e+0, 7.600e+11
2.960e+0, 7.550e+11
